File: V44/data/Diffus.UXD
; C:\DIFFDAT1\Praktikum\V44-FritzJan\Diffus.raw(Diffrac Plus V1.01 file) converted by XCH V1.0
_FILEVERSION=2
_SITE='Deutschland'
_USER='Administrator'
_GONIOMETER_CODE=4885
; D8 Theta/Theta; Special
_SAMPLE_CHANGER_CODE=0
_ATTACHMENTS_CODE=0
_GONIOMETER_RADIUS=350
_FIXED_DIVSLIT=0.600000
_FIXED_SAMPLESLIT=0.000000
_FIXED_DETSLIT=11.66
_MONOCHROMATOR=0
; None
_THIN_FILM='N'
_BETA_FILTER='Y'
_FIXED_ANTISLIT=8.340000
_ANALYZER_CODE=0
; None
_DATEMEASURED='04-Nov-2024 11:09:54'
_WL_UNIT='A'
_WL1=1.540600
_WL2=1.544390
_WL3=1.392220
_WLRATIO=0.500000
_ANODE='Cu'
; (Data for Range number 1)
_DRIVE='THETA'
_STEPTIME=5.000660
_STEPSIZE=0.005000
_STEPMODE='C'
_START=0.000000
_THETA=0.000000
_2THETA=0.200000
_KHI=0.000000
_PHI=90
_X=3.419000
_Y=-2.750000
_Z=0.368000
_DIVERGENCE=0.000000
_ANTISCATTER=0.000000
_DETECTOR=5
_DETECTORSLIT='unkn'
_AUX1=0.000000
_AUX2=0.000000
_AUX3=0.000000
_TIMESTARTED=3.000000
_TEMP_RATE=-1.000000
_TEMP_DELAY=-1.000000
_KV=35
_MA=35
_RANGE_WL=1.540600
_3DPLANE=0
_GONIOMETER=0.197500
_PSDCHANNEL0=0
_2THETACOUNTS
   0.0000    115022
   0.0050    105878
   0.0100     96894
   0.0150     89245
   0.0200     87497
   0.0250     81500
   0.0300     78410
   0.0350     74851
   0.0400     67157
   0.0450     61495
   0.0500     55415
   0.0550     49501
   0.0600     45923
   0.0650     42568
   0.0700     39301
   0.0750     36975
   0.0800     34764
   0.0850     32275
   0.0900     30575
   0.0950     28740
   0.1000     26484
   0.1050     24784
   0.1100     22760
   0.1150     20190
   0.1200     18691
   0.1250     17039
   0.1300     14975
   0.1350     13893
   0.1400     12347
   0.1450     10812
   0.1500      9588
   0.1550      8408
   0.1600      7470
   0.1650      6299
   0.1700      5611
   0.1750      4899
   0.1800      4265
   0.1850      3763
   0.1900      3283
   0.1950      2826
   0.2000      2551
   0.2050      2223
   0.2100      1851
   0.2150      1701
   0.2200      1505
   0.2250      1260
   0.2300      1111
   0.2350      1056
   0.2400       923
   0.2450       870
   0.2500       739
   0.2550       703
   0.2600       632
   0.2650       565
   0.2700       566
   0.2750       486
   0.2800       459
   0.2850       481
   0.2900       461
   0.2950       420
   0.3000       332
   0.3050       341
   0.3100       298
   0.3150       272
   0.3200       252
   0.3250       223
   0.3300       203
   0.3350       147
   0.3400       138
   0.3450       110
   0.3500        92
   0.3550       105
   0.3600        80
   0.3650        70
   0.3700        55
   0.3750        57
   0.3800        65
   0.3850        49
   0.3900        53
   0.3950        55
   0.4000        52
   0.4050        52
   0.4100        45
   0.4150        45
   0.4200        39
   0.4250        41
   0.4300        50
   0.4350        28
   0.4400        30
   0.4450        45
   0.4500        44
   0.4550        29
   0.4600        38
   0.4650        29
   0.4700        28
   0.4750        28
   0.4800        32
   0.4850        30
   0.4900        26
   0.4950        30
   0.5000        24
   0.5050        29
   0.5100        20
   0.5150        19
   0.5200        30
   0.5250        25
   0.5300        19
   0.5350        22
   0.5400        26
   0.5450        24
   0.5500        15
   0.5550        25
   0.5600        23
   0.5650        26
   0.5700        11
   0.5750        16
   0.5800        16
   0.5850        21
   0.5900        24
   0.5950        22
   0.6000        20
   0.6050        21
   0.6100        25
   0.6150        18
   0.6200        23
   0.6250        13
   0.6300        20
   0.6350        27
   0.6400        26
   0.6450        18
   0.6500        32
   0.6550        22
   0.6600        41
   0.6650        26
   0.6700        24
   0.6750        21
   0.6800        28
   0.6850        28
   0.6900        36
   0.6950        19
   0.7000        45
   0.7050        31
   0.7100        33
   0.7150        29
   0.7200        28
   0.7250        22
   0.7300        26
   0.7350        26
   0.7400        31
   0.7450        26
   0.7500        20
   0.7550        17
   0.7600        15
   0.7650        24
   0.7700        13
   0.7750        11
   0.7800        11
   0.7850         7
   0.7900         8
   0.7950         9
   0.8000        13
   0.8050        11
   0.8100        11
   0.8150         7
   0.8200         6
   0.8250         7
   0.8300         4
   0.8350         6
   0.8400         2
   0.8450         6
   0.8500         1
   0.8550         5
   0.8600         3
   0.8650         2
   0.8700         3
   0.8750         7
   0.8800         3
   0.8850         2
   0.8900         5
   0.8950         3
   0.9000         2
   0.9050         4
   0.9100         5
   0.9150         6
   0.9200         6
   0.9250         2
   0.9300         3
   0.9350         5
   0.9400         3
   0.9450         5
   0.9500         1
   0.9550         2
   0.9600         0
   0.9650         4
   0.9700         2
   0.9750         3
   0.9800         2
   0.9850         3
   0.9900         0
   0.9950         2
   1.0000         3
   1.0050         3
   1.0100         2
   1.0150         1
   1.0200         2
   1.0250         4
   1.0300         2
   1.0350         1
   1.0400         2
   1.0450         3
   1.0500         4
   1.0550         2
   1.0600         2
   1.0650         4
   1.0700         3
   1.0750         4
   1.0800         2
   1.0850         3
   1.0900         3
   1.0950         1
   1.1000         1
   1.1050         1
   1.1100         3
   1.1150         1
   1.1200         2
   1.1250         1
   1.1300         0
   1.1350         0
   1.1400         1
   1.1450         0
   1.1500         0
   1.1550         5
   1.1600         2
   1.1650         1
   1.1700         2
   1.1750         1
   1.1800         1
   1.1850         2
   1.1900         1
   1.1950         3
   1.2000         0
   1.2050         1
   1.2100         0
   1.2150         3
   1.2200         1
   1.2250         1
   1.2300         0
   1.2350         1
   1.2400         2
   1.2450         0
   1.2500         1
   1.2550         1
   1.2600         0
   1.2650         2
   1.2700         0
   1.2750         0
   1.2800         1
   1.2850         1
   1.2900         1
   1.2950         1
   1.3000         0
   1.3050         1
   1.3100         3
   1.3150         0
   1.3200         0
   1.3250         1
   1.3300         2
   1.3350         0
   1.3400         0
   1.3450         1
   1.3500         4
   1.3550         0
   1.3600         0
   1.3650         5
   1.3700         1
   1.3750         6
   1.3800         1
   1.3850         0
   1.3900         1
   1.3950         0
   1.4000         2
   1.4050         0
   1.4100         2
   1.4150         0
   1.4200         0
   1.4250         1
   1.4300         1
   1.4350         1
   1.4400         0
   1.4450         0
   1.4500         0
   1.4550         1
   1.4600         2
   1.4650         1
   1.4700         1
   1.4750         0
   1.4800         0
   1.4850         0
   1.4900         1
   1.4950         0
   1.5000         1
   1.5050         1
   1.5100         1
   1.5150         0
   1.5200         3
   1.5250         2
   1.5300         0
   1.5350         0
   1.5400         0
   1.5450         1
   1.5500         2
   1.5550         3
   1.5600         1
   1.5650         2
   1.5700         1
   1.5750         1
   1.5800         1
   1.5850         2
   1.5900         0
   1.5950         0
   1.6000         1
   1.6050         0
   1.6100         1
   1.6150         0
   1.6200         1
   1.6250         1
   1.6300         1
   1.6350         0
   1.6400         0
   1.6450         0
   1.6500         2
   1.6550         1
   1.6600         0
   1.6650         0
   1.6700         2
   1.6750         1
   1.6800         2
   1.6850         1
   1.6900         1
   1.6950         1
   1.7000         0
   1.7050         2
   1.7100         0
   1.7150         0
   1.7200         0
   1.7250         0
   1.7300         2
   1.7350         0
   1.7400         1
   1.7450         1
   1.7500         0
   1.7550         0
   1.7600         0
   1.7650         1
   1.7700         2
   1.7750         0
   1.7800         1
   1.7850         0
   1.7900         0
   1.7950         1
   1.8000         0
   1.8050         0
   1.8100         1
   1.8150         1
   1.8200         0
   1.8250         0
   1.8300         0
   1.8350         1
   1.8400         1
   1.8450         2
   1.8500         0
   1.8550         1
   1.8600         1
   1.8650         0
   1.8700         1
   1.8750         0
   1.8800         2
   1.8850         0
   1.8900         1
   1.8950         0
   1.9000         0
   1.9050         0
   1.9100         0
   1.9150         1
   1.9200         1
   1.9250         0
   1.9300         1
   1.9350         1
   1.9400         0
   1.9450         0
   1.9500         0
   1.9550         1
   1.9600         0
   1.9650         1
   1.9700         0
   1.9750         0
   1.9800         2
   1.9850         1
   1.9900         5
   1.9950         2
   2.0000         0
   2.0050         1
   2.0100         0
   2.0150         0
   2.0200         2
   2.0250         0
   2.0300         1
   2.0350         0
   2.0400         0
   2.0450         0
   2.0500         0
   2.0550         0
   2.0600         0
   2.0650         1
   2.0700         2
   2.0750         1
   2.0800         1
   2.0850         0
   2.0900         1
   2.0950         2
   2.1000         2
   2.1050         1
   2.1100         0
   2.1150         1
   2.1200         0
   2.1250         0
   2.1300         0
   2.1350         3
   2.1400         0
   2.1450         0
   2.1500         1
   2.1550         1
   2.1600         0
   2.1650         1
   2.1700         0
   2.1750         0
   2.1800         0
   2.1850         0
   2.1900         0
   2.1950         0
   2.2000         0
   2.2050         0
   2.2100         0
   2.2150         1
   2.2200         1
   2.2250         0
   2.2300         0
   2.2350         0
   2.2400         2
   2.2450         0
   2.2500         0
   2.2550         0
   2.2600         1
   2.2650         2
   2.2700         0
   2.2750         1
   2.2800         0
   2.2850         0
   2.2900         1
   2.2950         0
   2.3000         1
   2.3050         0
   2.3100         1
   2.3150         0
   2.3200         0
   2.3250         0
   2.3300         1
   2.3350         0
   2.3400         1
   2.3450         1
   2.3500         0
   2.3550         2
   2.3600         0
   2.3650         0
   2.3700         0
   2.3750         0
   2.3800         0
   2.3850         1
   2.3900         1
   2.3950         0
   2.4000         0
   2.4050         2
   2.4100         0
   2.4150         0
   2.4200         1
   2.4250         0
   2.4300         1
   2.4350         0
   2.4400         0
   2.4450         0
   2.4500         0
   2.4550         1
   2.4600         2
   2.4650         0
   2.4700         2
   2.4750         0
   2.4800         1
   2.4850         0
   2.4900         0
   2.4950         1
   2.5000         0