File: V44/data/Reflektivität.UXD
; C:\DIFFDAT1\Praktikum\V44-FritzJan\Reflektivitï¿½t.raw(Diffrac Plus V1.01 file) converted by XCH V1.0
_FILEVERSION=2
_SITE='Deutschland'
_USER='Administrator'
_GONIOMETER_CODE=4885
; D8 Theta/Theta; Special
_SAMPLE_CHANGER_CODE=0
_ATTACHMENTS_CODE=0
_GONIOMETER_RADIUS=350
_FIXED_DIVSLIT=0.600000
_FIXED_SAMPLESLIT=0.000000
_FIXED_DETSLIT=11.66
_MONOCHROMATOR=0
; None
_THIN_FILM='N'
_BETA_FILTER='Y'
_FIXED_ANTISLIT=8.340000
_ANALYZER_CODE=0
; None
_DATEMEASURED='04-Nov-2024 10:26:55'
_WL_UNIT='A'
_WL1=1.540600
_WL2=1.544390
_WL3=1.392220
_WLRATIO=0.500000
_ANODE='Cu'
; (Data for Range number 1)
_DRIVE='THETA'
_STEPTIME=5.000660
_STEPSIZE=0.005000
_STEPMODE='C'
_START=0.000000
_THETA=0.000000
_2THETA=0.000000
_KHI=0.000000
_PHI=90
_X=3.419000
_Y=-2.750000
_Z=0.368000
_DIVERGENCE=0.000000
_ANTISCATTER=0.000000
_DETECTOR=5
_DETECTORSLIT='unkn'
_AUX1=0.000000
_AUX2=0.000000
_AUX3=0.000000
_TIMESTARTED=2.000000
_TEMP_RATE=-1.000000
_TEMP_DELAY=-1.000000
_KV=35
_MA=35
_RANGE_WL=1.540600
_3DPLANE=0
_GONIOMETER=-0.002600
_PSDCHANNEL0=0
_2THETACOUNTS
   0.0000   3205890
   0.0050   3882970
   0.0100   4297330
   0.0150   4199980
   0.0200   3673110
   0.0250   2873420
   0.0300   2123030
   0.0350   1598980
   0.0400   1268350
   0.0450   1096150
   0.0500   1009150
   0.0550    978660
   0.0600    988045
   0.0650   1002500
   0.0700   1032510
   0.0750   1061510
   0.0800   1105670
   0.0850   1147560
   0.0900   1198840
   0.0950   1247940
   0.1000   1296530
   0.1050   1346130
   0.1100   1399240
   0.1150   1443800
   0.1200   1504520
   0.1250   1557000
   0.1300   1611520
   0.1350   1665410
   0.1400   1712930
   0.1450   1753470
   0.1500   1780360
   0.1550   1790110
   0.1600   1817000
   0.1650   1830150
   0.1700   1851060
   0.1750   1853770
   0.1800   1879430
   0.1850   1936200
   0.1900   1993310
   0.1950   2011450
   0.2000   2012110
   0.2050   1988690
   0.2100   1944560
   0.2150   1807250
   0.2200   1600070
   0.2250   1363260
   0.2300   1115670
   0.2350    861803
   0.2400    642412
   0.2450    471123
   0.2500    347876
   0.2550    277513
   0.2600    241895
   0.2650    218902
   0.2700    192153
   0.2750    163922
   0.2800    133173
   0.2850    107030
   0.2900     89925
   0.2950     80894
   0.3000     79015
   0.3050     78821
   0.3100     77488
   0.3150     71232
   0.3200     61860
   0.3250     51068
   0.3300     42046
   0.3350     36703
   0.3400     34532
   0.3450     35118
   0.3500     36825
   0.3550     37240
   0.3600     35960
   0.3650     32326
   0.3700     27316
   0.3750     22413
   0.3800     19046
   0.3850     17484
   0.3900     17975
   0.3950     19064
   0.4000     20354
   0.4050     20562
   0.4100     19193
   0.4150     17109
   0.4200     14169
   0.4250     11698
   0.4300     10160
   0.4350      9737
   0.4400     10242
   0.4450     11061
   0.4500     11785
   0.4550     11789
   0.4600     11133
   0.4650      9918
   0.4700      8228
   0.4750      6886
   0.4800      5983
   0.4850      5711
   0.4900      6125
   0.4950      6640
   0.5000      7168
   0.5050      7392
   0.5100      7024
   0.5150      6117
   0.5200      5058
   0.5250      4362
   0.5300      3676
   0.5350      3484
   0.5400      3869
   0.5450      4265
   0.5500      4651
   0.5550      4726
   0.5600      4556
   0.5650      4168
   0.5700      3490
   0.5750      2916
   0.5800      2438
   0.5850      2411
   0.5900      2395
   0.5950      2733
   0.6000      3043
   0.6050      2981
   0.6100      3028
   0.6150      2700
   0.6200      2377
   0.6250      2035
   0.6300      1661
   0.6350      1556
   0.6400      1581
   0.6450      1716
   0.6500      1880
   0.6550      2101
   0.6600      2062
   0.6650      1877
   0.6700      1657
   0.6750      1483
   0.6800      1214
   0.6850      1163
   0.6900      1093
   0.6950      1151
   0.7000      1259
   0.7050      1366
   0.7100      1340
   0.7150      1426
   0.7200      1283
   0.7250      1039
   0.7300       903
   0.7350       868
   0.7400       766
   0.7450       801
   0.7500       890
   0.7550       934
   0.7600       952
   0.7650       969
   0.7700       941
   0.7750       749
   0.7800       715
   0.7850       598
   0.7900       594
   0.7950       515
   0.8000       588
   0.8050       636
   0.8100       670
   0.8150       689
   0.8200       706
   0.8250       614
   0.8300       502
   0.8350       492
   0.8400       464
   0.8450       372
   0.8500       390
   0.8550       405
   0.8600       497
   0.8650       468
   0.8700       461
   0.8750       479
   0.8800       409
   0.8850       382
   0.8900       314
   0.8950       265
   0.9000       299
   0.9050       310
   0.9100       334
   0.9150       324
   0.9200       322
   0.9250       319
   0.9300       304
   0.9350       260
   0.9400       243
   0.9450       218
   0.9500       203
   0.9550       202
   0.9600       220
   0.9650       220
   0.9700       255
   0.9750       255
   0.9800       224
   0.9850       234
   0.9900       158
   0.9950       175
   1.0000       144
   1.0050       150
   1.0100       163
   1.0150       149
   1.0200       173
   1.0250       179
   1.0300       177
   1.0350       162
   1.0400       136
   1.0450       126
   1.0500       109
   1.0550       120
   1.0600       119
   1.0650       120
   1.0700       138
   1.0750       129
   1.0800       124
   1.0850       111
   1.0900       113
   1.0950       105
   1.1000       103
   1.1050        85
   1.1100        76
   1.1150        75
   1.1200        76
   1.1250        78
   1.1300        99
   1.1350        79
   1.1400        87
   1.1450        94
   1.1500        79
   1.1550        80
   1.1600        65
   1.1650        52
   1.1700        65
   1.1750        56
   1.1800        51
   1.1850        84
   1.1900        59
   1.1950        66
   1.2000        52
   1.2050        58
   1.2100        33
   1.2150        48
   1.2200        53
   1.2250        43
   1.2300        45
   1.2350        55
   1.2400        45
   1.2450        59
   1.2500        54
   1.2550        37
   1.2600        41
   1.2650        46
   1.2700        39
   1.2750        41
   1.2800        39
   1.2850        43
   1.2900        33
   1.2950        18
   1.3000        42
   1.3050        34
   1.3100        26
   1.3150        32
   1.3200        26
   1.3250        29
   1.3300        34
   1.3350        29
   1.3400        26
   1.3450        26
   1.3500        31
   1.3550        23
   1.3600        26
   1.3650        21
   1.3700        34
   1.3750        22
   1.3800        19
   1.3850        35
   1.3900        26
   1.3950        19
   1.4000        25
   1.4050        27
   1.4100        19
   1.4150        30
   1.4200        13
   1.4250        20
   1.4300        19
   1.4350        19
   1.4400        15
   1.4450        18
   1.4500        13
   1.4550        14
   1.4600        15
   1.4650        27
   1.4700        19
   1.4750        17
   1.4800        27
   1.4850        20
   1.4900        11
   1.4950        16
   1.5000        11
   1.5050        17
   1.5100        13
   1.5150        12
   1.5200         7
   1.5250        14
   1.5300        15
   1.5350        13
   1.5400         8
   1.5450        16
   1.5500        10
   1.5550        16
   1.5600        12
   1.5650        12
   1.5700         8
   1.5750        14
   1.5800         6
   1.5850         9
   1.5900        10
   1.5950        11
   1.6000         7
   1.6050        10
   1.6100        11
   1.6150        13
   1.6200         4
   1.6250        12
   1.6300         7
   1.6350         8
   1.6400         7
   1.6450         7
   1.6500         5
   1.6550         4
   1.6600         7
   1.6650         8
   1.6700         6
   1.6750        12
   1.6800         8
   1.6850         5
   1.6900         6
   1.6950         9
   1.7000         5
   1.7050         4
   1.7100         8
   1.7150         5
   1.7200         9
   1.7250         7
   1.7300         3
   1.7350         5
   1.7400         6
   1.7450         5
   1.7500         4
   1.7550         4
   1.7600         4
   1.7650         3
   1.7700         6
   1.7750         3
   1.7800         2
   1.7850         6
   1.7900         3
   1.7950         6
   1.8000         4
   1.8050         3
   1.8100         5
   1.8150         4
   1.8200         4
   1.8250         8
   1.8300         4
   1.8350         1
   1.8400         3
   1.8450         2
   1.8500         4
   1.8550         2
   1.8600         3
   1.8650         5
   1.8700         0
   1.8750         3
   1.8800         3
   1.8850         3
   1.8900         1
   1.8950         2
   1.9000         2
   1.9050         2
   1.9100         2
   1.9150         2
   1.9200         1
   1.9250         3
   1.9300         3
   1.9350         3
   1.9400         4
   1.9450         1
   1.9500         5
   1.9550         3
   1.9600         2
   1.9650         3
   1.9700         2
   1.9750         3
   1.9800         1
   1.9850         1
   1.9900         4
   1.9950         1
   2.0000         3
   2.0050         0
   2.0100         5
   2.0150         1
   2.0200         1
   2.0250         1
   2.0300         2
   2.0350         1
   2.0400         1
   2.0450         4
   2.0500         1
   2.0550         4
   2.0600         3
   2.0650         1
   2.0700         3
   2.0750         3
   2.0800         4
   2.0850         1
   2.0900         1
   2.0950         2
   2.1000         3
   2.1050         2
   2.1100         0
   2.1150         0
   2.1200         1
   2.1250         2
   2.1300         1
   2.1350         5
   2.1400         0
   2.1450         5
   2.1500         2
   2.1550         1
   2.1600         1
   2.1650         0
   2.1700         0
   2.1750         2
   2.1800         1
   2.1850         1
   2.1900         3
   2.1950         0
   2.2000         0
   2.2050         0
   2.2100         3
   2.2150         2
   2.2200         1
   2.2250         2
   2.2300         1
   2.2350         1
   2.2400         1
   2.2450         1
   2.2500         1
   2.2550         1
   2.2600         3
   2.2650         0
   2.2700         3
   2.2750         3
   2.2800         0
   2.2850         3
   2.2900         2
   2.2950         1
   2.3000         0
   2.3050         0
   2.3100         3
   2.3150         1
   2.3200         2
   2.3250         2
   2.3300         2
   2.3350         0
   2.3400         0
   2.3450         1
   2.3500         1
   2.3550         3
   2.3600         0
   2.3650         1
   2.3700         0
   2.3750         2
   2.3800         0
   2.3850         0
   2.3900         2
   2.3950         0
   2.4000         4
   2.4050         0
   2.4100         1
   2.4150         1
   2.4200         0
   2.4250         1
   2.4300         1
   2.4350         1
   2.4400         3
   2.4450         2
   2.4500         1
   2.4550         2
   2.4600         2
   2.4650         1
   2.4700         2
   2.4750         2
   2.4800         1
   2.4850         1
   2.4900         0
   2.4950         1
   2.5000         2